File: NIMS_like_fatigue_dataset.csv
C (%),Si (%),Mn (%),P (%),S (%),Ni (%),Cr (%),Cu (%),Mo (%),Ingot Size (kg),Reduction Ratio (%),Inclusion Rating,Normalizing Temp (°C),Normalizing Time (h),Quenching Temp (°C),Quenching Time (s),Tempering Temp (°C),Tempering Time (h),Yield Strength (MPa),Ultimate Tensile Strength (MPa),% Elongation,% Reduction in Area,Hardness (HV),Charpy Impact Energy (J),Fatigue Strength (MPa)
0.481,1.188,0.574,0.0353,0.0336,0.329,1.09,0.315,0.141,4705.0,6.79,5,945.0,1.74,836.0,38.0,464.0,4.25,616,744,24.54,34.13,371,82.22,392
0.892,0.694,0.527,0.0204,0.0137,2.342,0.339,0.353,0.185,4205.0,4.31,0,812.0,1.38,769.0,49.0,442.0,1.08,809,922,18.97,25.73,533,70.43,477
0.229,0.256,0.959,0.022,0.0135,3.076,1.563,0.221,0.219,4008.0,5.97,1,872.0,1.43,765.0,11.0,260.0,4.76,553,604,29.15,35.17,318,120.4,301
0.117,0.116,1.671,0.0365,0.0238,1.811,0.328,0.468,0.826,4183.0,7.88,1,882.0,0.86,861.0,35.0,323.0,1.97,506,634,27.73,47.5,237,94.87,328
0.741,0.179,0.667,0.0147,0.0077,1.109,0.133,0.412,0.927,4505.0,6.68,3,932.0,3.67,877.0,22.0,655.0,4.69,797,879,17.02,42.13,490,53.67,429
0.074,0.265,1.263,0.0369,0.0238,2.709,1.569,0.222,0.571,1823.0,3.4,3,924.0,3.89,802.0,47.0,460.0,4.98,539,677,25.87,58.16,254,108.68,345
1.007,1.144,1.323,0.0268,0.0107,3.124,0.761,0.151,0.375,3944.0,2.73,5,808.0,3.81,812.0,7.0,589.0,1.01,746,883,13.7,35.78,572,75.18,454
0.259,1.447,1.194,0.0307,0.0047,2.125,0.103,0.028,0.367,4395.0,6.4,1,877.0,1.56,828.0,45.0,500.0,4.19,549,666,22.37,45.86,244,89.82,238
0.4,0.5,0.73,0.0301,0.0117,2.071,1.328,0.464,0.557,1067.0,6.17,5,870.0,1.56,898.0,25.0,449.0,1.58,648,763,21.47,30.68,368,103.21,396
0.547,0.413,1.574,0.0113,0.0226,0.831,1.709,0.382,0.796,3532.0,3.57,1,846.0,1.0,780.0,45.0,291.0,0.75,664,765,25.33,44.83,442,60.07,319
0.754,0.117,1.763,0.039,0.0088,0.365,1.807,0.328,0.673,1959.0,8.89,4,819.0,1.98,848.0,27.0,416.0,2.78,815,902,22.68,34.87,514,53.75,454
0.386,0.16,1.81,0.0349,0.0223,1.707,1.583,0.08,0.218,3174.0,9.13,2,917.0,0.99,877.0,35.0,237.0,3.78,642,701,21.65,40.48,368,86.86,306
0.574,0.839,0.965,0.0137,0.0232,3.327,0.856,0.035,0.25,3571.0,8.48,3,834.0,2.75,834.0,14.0,291.0,3.26,684,743,21.26,37.82,408,72.82,354
0.28,0.203,0.684,0.0206,0.0034,2.603,0.225,0.332,0.001,2431.0,8.0,1,850.0,0.84,784.0,43.0,519.0,2.96,596,687,22.48,50.65,268,119.21,320
0.731,1.457,1.34,0.0176,0.0284,2.219,0.569,0.407,0.793,3959.0,6.58,1,851.0,3.73,805.0,43.0,569.0,1.67,741,858,17.64,31.76,498,76.89,374
0.749,0.981,0.451,0.0107,0.0343,0.89,1.52,0.055,0.75,3616.0,4.15,3,873.0,1.74,789.0,13.0,583.0,1.04,670,779,16.25,29.31,514,63.54,398
0.125,0.736,1.972,0.0389,0.0212,1.654,0.21,0.155,0.458,3314.0,3.97,0,934.0,2.38,896.0,34.0,442.0,2.75,515,647,28.04,44.94,207,120.43,274
1.16,0.918,0.509,0.028,0.0288,0.49,1.891,0.258,0.094,1484.0,6.44,1,906.0,2.89,872.0,24.0,209.0,3.66,788,927,12.95,18.13,701,25.59,451
0.4,0.164,0.233,0.0321,0.0062,3.4,1.984,0.178,0.921,1089.0,5.41,0,808.0,1.43,802.0,37.0,509.0,2.08,653,791,26.19,42.26,406,99.14,385
0.837,1.431,0.412,0.0389,0.0326,1.687,1.929,0.414,0.291,4323.0,2.65,5,908.0,2.09,780.0,30.0,243.0,2.27,750,854,13.71,35.15,514,58.87,418
0.19,0.738,0.693,0.0133,0.0143,2.138,0.795,0.154,0.238,3804.0,3.37,1,828.0,2.49,850.0,49.0,662.0,0.78,489,628,25.34,38.75,278,108.98,305
0.09,0.488,1.373,0.0109,0.0165,0.724,0.472,0.476,0.468,2653.0,3.71,1,803.0,3.97,891.0,54.0,264.0,4.95,525,602,28.31,47.99,229,118.15,339
0.348,0.749,0.572,0.0168,0.0331,0.019,1.283,0.177,0.761,1994.0,5.2,3,820.0,2.92,782.0,28.0,496.0,0.71,651,739,23.64,36.97,345,86.16,373
0.408,0.917,0.446,0.0201,0.006,0.767,1.199,0.471,0.487,562.0,2.11,1,891.0,3.93,878.0,54.0,222.0,1.64,633,709,24.83,40.55,366,95.15,397
0.679,1.464,1.773,0.0266,0.0313,0.378,1.641,0.051,0.597,1664.0,7.35,0,804.0,2.9,770.0,52.0,645.0,3.67,857,913,18.89,33.37,481,60.41,502
1.165,1.077,1.281,0.0108,0.0114,2.809,0.838,0.277,0.769,3341.0,9.46,0,802.0,3.29,816.0,53.0,301.0,2.34,888,955,11.93,27.32,663,51.31,437
1.13,0.533,0.516,0.0063,0.0304,1.794,0.594,0.097,0.828,2967.0,3.23,3,934.0,3.23,851.0,15.0,507.0,2.59,791,847,12.88,30.62,629,44.22,406
0.738,1.059,0.954,0.0282,0.0323,3.261,1.843,0.338,0.03,1832.0,5.67,3,880.0,1.84,893.0,28.0,233.0,2.52,684,810,20.09,27.97,503,82.27,427
0.152,1.375,1.134,0.0345,0.0269,0.305,0.993,0.429,0.34,4844.0,7.3,2,858.0,2.01,807.0,23.0,322.0,2.79,538,610,30.39,51.41,241,101.72,329
0.102,1.43,0.499,0.0255,0.0298,0.398,1.445,0.22,0.615,4507.0,9.45,2,934.0,1.59,767.0,21.0,408.0,4.15,531,628,27.35,49.81,235,106.38,363
0.497,0.959,0.349,0.0122,0.0276,1.776,0.38,0.08,0.51,3038.0,7.76,1,892.0,3.78,777.0,29.0,659.0,3.49,516,642,23.99,42.17,382,98.28,274
1.003,1.406,0.642,0.0144,0.0079,1.727,1.299,0.09,0.05,812.0,9.04,5,944.0,1.11,809.0,46.0,296.0,3.74,832,949,13.52,30.52,594,68.58,464
0.373,0.163,0.72,0.0236,0.0345,3.475,0.355,0.115,0.551,3204.0,3.85,1,868.0,3.08,872.0,47.0,654.0,4.52,576,626,25.23,41.29,311,122.71,330
0.212,0.627,1.494,0.0064,0.0034,0.962,1.106,0.083,0.839,4628.0,4.05,4,944.0,0.74,811.0,46.0,233.0,0.75,561,701,27.02,44.89,301,95.33,316
0.136,1.482,1.22,0.0208,0.0063,1.476,1.051,0.359,0.025,1145.0,3.11,5,887.0,3.69,781.0,12.0,486.0,0.67,469,573,24.66,43.91,244,96.62,268
0.938,0.932,1.395,0.0161,0.029,3.177,0.245,0.257,0.237,1820.0,6.0,3,842.0,3.02,859.0,49.0,261.0,2.94,772,856,14.93,36.0,544,87.73,424
0.056,1.458,1.519,0.0065,0.0187,2.128,1.633,0.042,0.725,3640.0,3.91,1,950.0,3.02,811.0,8.0,640.0,3.86,542,657,28.22,43.46,243,115.22,342
0.863,1.274,0.256,0.0395,0.0262,2.883,1.138,0.083,0.608,4065.0,8.08,3,887.0,1.81,848.0,52.0,441.0,1.26,697,818,12.47,29.54,571,74.48,447
0.937,0.681,1.271,0.0052,0.0215,2.874,0.183,0.121,0.173,3558.0,5.29,5,823.0,1.01,898.0,19.0,339.0,3.71,731,796,17.6,25.04,525,85.31,423
0.462,0.179,1.093,0.0274,0.0118,2.227,0.947,0.053,0.801,1831.0,9.81,4,877.0,1.32,815.0,34.0,673.0,3.67,652,742,24.64,40.54,384,111.7,337
1.043,1.238,0.802,0.0209,0.0247,0.902,0.195,0.26,0.751,1724.0,9.48,2,847.0,1.92,888.0,18.0,430.0,2.27,822,896,13.15,29.07,604,41.7,413
0.431,1.495,0.392,0.0221,0.023,2.113,1.964,0.123,0.773,3478.0,8.26,3,845.0,0.88,784.0,22.0,281.0,1.04,540,677,19.47,31.23,421,100.46,369
0.408,1.177,1.511,0.0099,0.0073,0.401,1.722,0.196,0.677,3171.0,7.53,4,942.0,3.68,878.0,6.0,569.0,3.54,657,798,22.32,40.24,403,88.93,434
0.889,1.29,1.439,0.0158,0.0023,1.597,1.925,0.11,0.929,3780.0,5.15,4,886.0,3.37,851.0,24.0,513.0,3.79,919,979,16.09,37.71,601,53.09,451
1.07,0.731,0.644,0.0121,0.026,0.424,1.908,0.308,0.066,3493.0,7.37,4,801.0,1.24,885.0,9.0,263.0,0.83,811,956,11.57,40.79,642,37.67,483
0.188,1.436,1.639,0.0389,0.0053,2.629,1.452,0.208,0.827,2042.0,6.6,2,942.0,2.82,773.0,17.0,266.0,4.28,568,627,27.14,43.02,287,118.91,285
0.925,0.42,0.69,0.0285,0.0284,0.281,1.182,0.27,0.775,925.0,6.04,4,824.0,3.71,864.0,49.0,332.0,4.53,676,742,16.37,29.03,557,42.73,349
0.937,0.965,0.85,0.0354,0.0203,3.296,0.93,0.351,0.345,4633.0,5.42,4,881.0,3.28,845.0,46.0,560.0,4.96,837,904,15.17,31.8,571,61.2,446
0.651,0.259,1.851,0.0292,0.0223,2.375,0.239,0.25,0.961,965.0,7.96,2,839.0,3.92,872.0,25.0,310.0,0.55,759,893,22.61,40.22,442,81.52,460
0.079,0.828,1.91,0.0381,0.0137,2.078,1.964,0.435,0.933,3780.0,5.24,5,904.0,1.07,772.0,21.0,509.0,1.76,627,737,27.54,51.08,280,116.5,408
0.086,0.828,0.533,0.0224,0.0203,2.226,1.606,0.266,0.611,1032.0,3.59,1,949.0,0.85,784.0,46.0,252.0,1.3,422,558,27.31,49.51,251,117.86,334
0.412,0.873,1.771,0.0354,0.0271,2.144,1.893,0.303,0.318,3705.0,9.27,4,881.0,3.36,763.0,22.0,645.0,4.57,576,694,22.3,37.46,396,99.77,385
1.094,1.327,1.652,0.0061,0.0266,2.534,1.091,0.169,0.947,1645.0,8.01,2,861.0,0.81,837.0,50.0,611.0,3.52,844,916,12.46,31.68,643,71.35,434
0.522,0.288,1.446,0.0291,0.0336,3.159,1.539,0.346,0.739,2931.0,8.77,1,947.0,3.93,853.0,35.0,431.0,3.31,705,795,22.57,38.39,399,111.22,355
0.313,1.157,0.649,0.0125,0.0128,1.869,1.006,0.196,0.282,4809.0,9.65,2,875.0,1.96,790.0,55.0,490.0,1.45,581,711,30.32,39.37,279,92.92,360
0.383,1.086,0.598,0.0188,0.0121,0.041,0.57,0.102,0.01,2815.0,4.71,5,834.0,3.95,879.0,18.0,405.0,1.3,667,762,20.29,40.66,325,80.1,420
1.119,0.291,1.899,0.0087,0.0349,1.033,1.367,0.21,0.706,2970.0,5.89,3,904.0,1.49,896.0,50.0,550.0,2.29,887,997,18.07,30.64,691,43.2,441
0.778,0.591,1.47,0.04,0.0168,2.02,1.174,0.396,0.99,3232.0,3.99,3,949.0,0.7,830.0,28.0,226.0,2.52,749,841,22.51,34.51,514,87.96,399
0.974,0.649,0.525,0.0392,0.0312,0.431,1.048,0.237,0.34,1581.0,8.47,1,856.0,2.53,774.0,29.0,429.0,3.85,819,895,14.92,31.02,550,39.2,402
1.076,1.366,1.848,0.0355,0.0149,1.201,0.117,0.314,0.443,1917.0,4.42,1,826.0,2.24,849.0,21.0,321.0,2.47,764,858,13.68,29.57,604,65.11,405
0.979,0.82,1.455,0.0248,0.025,2.283,1.86,0.127,0.343,1296.0,8.86,0,852.0,2.06,890.0,9.0,643.0,3.05,914,973,18.46,21.59,603,66.59,478
0.416,0.655,1.864,0.0357,0.0224,2.424,1.305,0.362,0.935,2498.0,3.17,2,917.0,3.06,837.0,29.0,575.0,3.61,675,746,24.04,37.31,382,104.76,366
0.312,1.307,1.9,0.0164,0.0282,2.355,0.711,0.418,0.373,4431.0,9.56,2,919.0,1.76,851.0,10.0,438.0,3.43,568,659,27.07,33.5,306,97.28,321
0.991,0.306,1.752,0.0333,0.0214,1.072,1.485,0.422,0.062,3122.0,4.65,3,851.0,0.75,811.0,10.0,585.0,2.48,879,987,19.1,28.97,589,42.59,498
0.058,0.789,0.774,0.0329,0.0232,1.562,0.915,0.167,0.163,1971.0,7.17,1,836.0,2.37,787.0,49.0,451.0,3.88,453,547,28.7,41.23,198,113.76,268
0.53,0.743,0.267,0.0336,0.0211,2.878,1.014,0.226,0.15,2312.0,2.96,1,876.0,2.16,839.0,17.0,405.0,3.21,514,584,19.29,40.5,393,91.01,309
0.188,0.79,0.614,0.0241,0.0205,3.208,0.325,0.427,0.447,3570.0,8.42,4,801.0,2.01,860.0,24.0,586.0,4.93,461,599,30.66,49.1,253,133.39,288
1.134,0.987,0.339,0.0164,0.0243,1.116,0.856,0.233,0.247,1099.0,3.1,0,877.0,2.58,840.0,36.0,661.0,0.7,723,814,9.45,30.82,639,47.87,413
0.647,0.206,0.812,0.0189,0.0109,1.299,1.987,0.194,0.662,1077.0,4.63,1,945.0,1.94,820.0,5.0,390.0,3.3,744,843,17.05,34.2,486,69.44,459
0.468,0.279,0.318,0.0186,0.0184,2.47,1.546,0.451,0.754,3620.0,8.01,2,930.0,2.71,823.0,57.0,503.0,0.61,635,740,27.03,30.39,375,87.34,339
1.157,0.294,1.171,0.0133,0.0039,1.311,0.846,0.033,0.904,3891.0,9.57,3,885.0,1.01,815.0,11.0,443.0,2.0,923,990,10.4,20.21,671,41.88,547
0.622,0.355,0.774,0.013,0.0279,1.507,1.845,0.195,0.757,2750.0,8.87,1,887.0,0.56,805.0,52.0,288.0,1.68,688,819,18.1,35.45,476,75.8,421
0.378,1.356,1.795,0.0261,0.028,3.115,1.197,0.484,0.007,3286.0,7.64,5,856.0,1.33,883.0,60.0,471.0,3.6,641,704,27.61,41.9,329,111.88,324
0.751,1.035,0.619,0.0267,0.0165,0.541,1.596,0.324,0.664,616.0,7.42,2,869.0,3.08,772.0,9.0,583.0,1.4,684,755,20.35,27.48,514,57.18,388
0.109,0.369,1.766,0.0183,0.0128,2.26,1.172,0.188,0.402,2494.0,8.98,0,930.0,2.27,804.0,27.0,674.0,3.16,612,694,30.89,43.96,244,124.53,379
1.095,0.337,1.774,0.0232,0.0049,1.192,1.348,0.217,0.896,4325.0,2.43,0,945.0,3.86,822.0,36.0,268.0,1.16,900,1020,14.38,32.79,638,58.95,474
0.217,0.348,1.89,0.0059,0.0217,1.434,0.464,0.28,0.314,1065.0,5.8,1,837.0,3.52,869.0,10.0,256.0,4.16,568,632,27.38,54.65,245,97.24,265
1.183,0.269,1.996,0.0183,0.0349,2.37,0.293,0.11,0.272,986.0,5.07,3,934.0,3.17,822.0,30.0,292.0,3.89,880,1010,11.17,23.13,628,54.23,547
0.823,0.389,1.581,0.0253,0.0232,1.276,0.52,0.186,0.185,3135.0,8.69,3,867.0,0.53,811.0,36.0,403.0,3.51,773,883,15.66,30.74,472,76.91,462
0.323,0.805,1.064,0.0263,0.023,3.458,0.168,0.185,0.43,887.0,3.51,4,879.0,2.55,873.0,21.0,597.0,3.39,492,600,24.78,42.53,278,126.43,279
0.473,0.155,1.773,0.0335,0.0059,2.409,1.747,0.361,0.12,975.0,6.09,3,841.0,2.31,833.0,14.0,285.0,3.3,674,732,21.66,44.06,402,88.3,372
0.779,0.979,1.583,0.0384,0.0297,1.7,1.906,0.354,0.531,2950.0,5.69,1,808.0,1.98,798.0,21.0,455.0,2.75,664,732,18.9,42.46,524,81.72,346
0.154,1.323,0.958,0.0119,0.0209,1.769,0.93,0.109,0.493,3370.0,8.64,4,858.0,2.05,891.0,55.0,506.0,1.75,507,622,27.67,41.26,252,97.12,265
0.419,0.186,0.63,0.0277,0.0081,1.345,1.082,0.242,0.596,687.0,2.84,5,847.0,1.32,841.0,18.0,557.0,3.62,570,621,21.85,46.69,405,112.95,320
0.097,1.229,0.838,0.0135,0.013,0.108,0.637,0.402,0.164,3602.0,7.37,4,848.0,2.56,764.0,23.0,656.0,2.04,519,629,30.93,47.08,202,104.77,331
0.829,0.358,0.733,0.0071,0.0028,0.56,1.799,0.274,0.547,1885.0,4.9,4,846.0,1.33,831.0,53.0,322.0,3.03,747,855,19.5,33.32,545,38.99,413
0.639,0.619,0.276,0.0173,0.011,2.647,1.796,0.383,0.344,4541.0,7.8,1,862.0,3.4,810.0,14.0,351.0,2.88,714,821,21.29,33.57,455,93.59,401
0.792,0.966,1.978,0.022,0.0119,1.012,1.583,0.391,0.659,3124.0,5.26,3,886.0,1.4,787.0,21.0,686.0,3.1,748,880,18.61,29.63,543,79.66,471
0.845,0.748,0.892,0.015,0.0106,0.406,1.045,0.402,0.821,2142.0,2.38,0,836.0,2.84,817.0,30.0,255.0,4.84,723,796,17.49,36.87,557,41.06,440
1.127,0.151,0.593,0.0331,0.0308,1.099,1.223,0.07,0.657,2598.0,7.43,5,907.0,2.21,767.0,8.0,412.0,0.74,819,919,14.36,30.35,672,39.81,416
0.442,1.099,1.615,0.0159,0.0081,2.11,0.73,0.31,0.4,3658.0,4.16,5,813.0,2.69,860.0,32.0,421.0,2.88,688,788,27.58,43.91,334,95.07,407
1.113,0.816,0.952,0.0301,0.0171,3.444,0.493,0.085,0.011,2114.0,9.54,3,810.0,3.98,831.0,22.0,472.0,2.67,714,836,14.81,22.66,610,54.96,431
0.347,0.25,1.901,0.0195,0.0064,3.364,0.231,0.445,0.801,594.0,8.2,3,911.0,2.2,864.0,53.0,437.0,3.96,596,674,24.8,49.87,317,101.45,340
0.99,0.846,1.304,0.0113,0.026,1.349,1.063,0.454,0.577,756.0,3.11,5,926.0,3.71,787.0,49.0,634.0,1.9,862,954,17.19,41.21,572,50.09,463
0.659,0.477,1.984,0.0114,0.0164,1.895,1.641,0.299,0.119,3659.0,6.35,5,927.0,2.08,800.0,35.0,417.0,4.27,779,913,21.78,29.09,486,72.21,462
0.157,0.128,1.897,0.0298,0.0273,1.938,0.731,0.445,0.215,3540.0,4.95,2,833.0,2.55,850.0,22.0,653.0,4.46,601,720,27.0,54.74,250,107.13,351
1.085,0.396,1.294,0.0249,0.0221,2.667,1.565,0.316,0.595,3903.0,4.75,5,943.0,1.17,875.0,22.0,466.0,3.17,924,1023,14.59,28.64,630,66.62,588
0.44,0.268,0.615,0.0387,0.0268,1.542,0.388,0.237,0.032,2355.0,5.53,1,830.0,1.36,770.0,21.0,224.0,3.55,546,671,25.15,40.05,333,84.6,360
0.885,0.931,0.597,0.0332,0.0336,0.908,1.124,0.135,0.532,1629.0,6.04,5,893.0,1.67,897.0,22.0,631.0,3.6,732,820,17.69,32.35,582,38.11,415
1.07,1.205,1.603,0.0065,0.0039,0.202,0.908,0.157,0.173,3130.0,3.11,0,819.0,2.37,859.0,34.0,606.0,1.75,815,937,13.63,26.88,599,45.76,384
0.788,0.222,0.304,0.0383,0.0106,0.946,0.343,0.107,0.296,2200.0,4.0,0,836.0,2.4,833.0,11.0,657.0,3.88,564,635,17.66,34.76,483,59.59,327
0.236,0.922,1.791,0.0337,0.0319,1.952,0.1,0.454,0.819,2027.0,7.31,1,862.0,1.82,840.0,31.0,652.0,2.1,722,800,26.11,49.05,268,123.76,402
0.747,0.704,1.991,0.013,0.011,2.032,1.093,0.094,0.26,1229.0,5.32,0,833.0,2.68,896.0,49.0,476.0,0.64,704,828,22.17,29.78,468,71.07,438
0.167,0.497,0.913,0.0264,0.0168,1.554,1.949,0.348,0.431,4990.0,8.28,3,859.0,3.22,824.0,28.0,222.0,3.93,593,688,27.33,44.93,274,117.48,372
0.056,1.004,1.453,0.0344,0.0042,1.711,0.678,0.411,0.05,2096.0,8.56,2,943.0,1.08,854.0,22.0,422.0,4.28,496,644,29.14,52.09,186,120.81,354
0.681,0.599,1.668,0.0174,0.0031,3.478,0.538,0.398,0.692,1018.0,5.35,5,836.0,3.74,825.0,8.0,295.0,2.15,614,671,17.61,39.79,481,90.92,331
0.8,0.948,0.603,0.0323,0.0319,2.182,1.486,0.346,0.227,2367.0,4.05,3,848.0,1.97,826.0,49.0,200.0,2.51,731,840,20.18,28.99,526,91.6,411
0.869,0.242,1.267,0.0338,0.0196,2.172,0.526,0.47,0.253,3469.0,6.1,1,876.0,0.79,842.0,12.0,240.0,4.79,673,764,16.83,29.96,509,79.28,399
0.424,0.444,0.365,0.0284,0.0135,1.383,1.51,0.162,0.359,3417.0,6.77,0,929.0,2.83,783.0,56.0,393.0,4.65,668,723,23.6,45.5,378,74.69,401
0.797,0.361,0.678,0.0268,0.0027,1.664,0.903,0.095,0.821,4162.0,5.48,1,854.0,2.55,876.0,44.0,377.0,4.93,673,773,15.27,23.27,524,80.28,358
0.806,0.343,1.8,0.0255,0.0338,0.797,0.718,0.109,0.351,3419.0,4.76,3,847.0,3.88,807.0,34.0,682.0,4.69,851,911,17.6,40.38,500,70.15,430
0.158,0.212,1.752,0.0308,0.0329,3.183,1.652,0.132,0.806,1181.0,3.63,4,905.0,2.77,888.0,58.0,212.0,3.87,627,687,24.98,50.87,263,133.26,318
0.355,0.675,1.379,0.0126,0.0158,1.867,0.805,0.407,0.209,3208.0,3.76,4,861.0,3.01,766.0,50.0,638.0,1.13,627,696,26.73,42.76,353,103.58,376
1.169,0.257,0.357,0.0058,0.0261,0.457,1.633,0.38,0.467,2307.0,9.32,1,904.0,2.86,876.0,17.0,247.0,2.41,739,806,10.17,26.01,694,23.86,415
1.076,1.457,0.871,0.0262,0.0105,0.437,1.533,0.044,0.841,1071.0,7.94,4,846.0,3.62,885.0,27.0,503.0,2.94,773,908,14.85,36.18,640,52.56,461
0.964,1.244,1.502,0.0131,0.0085,0.965,1.222,0.184,0.381,1232.0,2.96,3,844.0,1.66,834.0,10.0,227.0,1.14,848,930,15.27,25.83,577,54.45,463
0.713,0.339,0.346,0.0258,0.0173,3.304,0.249,0.016,0.824,1440.0,7.79,2,909.0,3.96,795.0,56.0,511.0,4.15,591,690,23.26,39.84,466,86.98,358
0.275,1.401,1.43,0.0396,0.0221,1.619,1.448,0.017,0.459,2986.0,5.44,4,948.0,3.06,848.0,14.0,452.0,3.35,585,702,28.17,46.21,328,101.17,377
0.373,0.9,1.732,0.0293,0.0058,1.692,1.583,0.122,0.933,4424.0,6.1,1,899.0,1.24,864.0,39.0,342.0,1.44,667,806,24.32,39.36,349,98.17,375
0.792,1.177,1.065,0.02,0.0094,2.061,1.909,0.019,0.934,2055.0,5.0,5,937.0,1.48,839.0,58.0,621.0,0.85,795,925,16.67,39.69,500,75.06,453
1.132,0.553,1.684,0.0292,0.0301,1.0,0.604,0.162,0.532,2931.0,7.75,5,913.0,1.32,818.0,14.0,239.0,1.24,917,979,11.0,33.4,653,44.35,480
1.102,0.811,1.42,0.0095,0.0193,2.666,0.663,0.444,0.476,3046.0,2.28,4,841.0,3.58,857.0,10.0,446.0,1.86,779,846,17.64,39.05,631,66.04,444
0.068,0.261,0.681,0.0304,0.0304,1.789,1.542,0.45,0.161,2283.0,3.86,3,850.0,1.7,799.0,16.0,689.0,3.2,533,609,31.91,54.01,216,116.05,306
0.542,0.504,1.635,0.0146,0.0042,2.02,1.076,0.413,0.971,1146.0,3.52,2,933.0,0.52,806.0,30.0,444.0,3.84,699,790,19.37,35.04,419,86.08,385
1.158,0.316,1.731,0.008,0.0199,3.433,0.802,0.125,0.715,2447.0,5.13,1,895.0,3.39,880.0,9.0,520.0,3.48,779,841,11.79,17.29,630,65.55,385
0.389,0.846,1.475,0.0117,0.0171,2.896,1.672,0.034,0.418,863.0,4.73,3,808.0,1.06,884.0,56.0,415.0,3.6,693,766,23.86,43.19,363,76.39,368
1.029,0.571,1.455,0.0129,0.0075,2.007,1.457,0.499,0.613,3898.0,7.4,4,874.0,2.66,882.0,48.0,644.0,2.41,827,910,14.74,33.18,631,46.92,436
0.245,0.189,1.314,0.0074,0.03,0.702,1.85,0.374,0.662,4228.0,8.89,3,827.0,2.68,884.0,23.0,657.0,3.87,632,767,27.73,48.13,326,105.04,407
1.127,0.551,0.485,0.0074,0.0173,2.989,1.485,0.429,0.355,2646.0,2.08,2,848.0,1.79,804.0,20.0,349.0,4.47,791,906,12.37,24.71,637,70.75,430
0.706,0.456,1.769,0.0132,0.0235,2.964,0.621,0.121,0.403,4229.0,5.69,4,870.0,3.34,892.0,40.0,216.0,1.38,755,852,19.54,27.27,478,88.68,406
0.757,1.164,1.686,0.0358,0.0041,0.219,0.471,0.206,0.815,1747.0,5.87,2,939.0,3.82,809.0,55.0,463.0,0.89,760,883,22.21,37.12,526,59.23,446
0.211,0.76,0.803,0.0237,0.0286,1.569,0.738,0.011,0.373,1060.0,8.04,2,906.0,3.2,815.0,9.0,381.0,3.71,521,637,28.07,52.88,270,106.94,310
1.059,0.588,0.489,0.0167,0.0037,2.193,1.727,0.392,0.106,4869.0,6.31,0,916.0,3.64,819.0,22.0,695.0,3.31,820,875,13.57,18.3,634,63.12,373
0.852,1.263,1.698,0.0398,0.0086,0.067,1.481,0.156,0.413,3749.0,8.86,1,915.0,0.81,888.0,15.0,527.0,2.2,837,958,19.64,23.09,519,40.78,500
0.463,0.274,0.211,0.0245,0.0074,2.407,1.899,0.116,0.658,2324.0,7.65,0,897.0,3.39,831.0,58.0,674.0,3.74,593,683,26.4,44.35,408,82.22,349
0.981,1.414,1.31,0.0213,0.027,2.424,0.823,0.382,0.395,3113.0,2.06,0,887.0,1.2,825.0,10.0,466.0,3.69,747,847,14.46,27.77,557,69.09,413
1.047,0.193,1.337,0.0247,0.0088,1.048,1.594,0.381,0.157,3525.0,3.88,1,869.0,3.48,797.0,24.0,551.0,1.96,669,766,12.81,34.3,636,58.55,426
0.638,0.904,1.341,0.0111,0.031,2.816,0.83,0.419,0.042,4144.0,4.7,5,805.0,3.83,782.0,29.0,297.0,0.62,606,681,17.84,42.12,433,99.5,330
0.968,0.296,1.604,0.012,0.0099,0.737,1.694,0.282,0.168,599.0,2.0,2,812.0,1.02,867.0,16.0,569.0,4.11,861,1010,18.13,32.11,575,50.47,510
0.857,0.382,1.57,0.0084,0.0345,0.031,1.437,0.432,0.557,888.0,3.93,2,844.0,2.52,843.0,20.0,487.0,2.83,820,954,18.87,37.54,554,31.66,469
1.074,0.33,1.933,0.0315,0.0029,2.369,0.932,0.29,0.502,1762.0,2.55,2,820.0,0.56,892.0,16.0,631.0,0.64,801,927,16.79,23.44,621,56.92,435
0.482,1.031,1.339,0.0283,0.0173,1.031,1.439,0.378,0.958,2479.0,6.44,1,919.0,0.66,832.0,31.0,459.0,0.56,624,686,21.02,44.46,385,80.71,334
0.715,0.602,0.385,0.0375,0.0198,2.583,1.138,0.354,0.886,2214.0,5.34,1,816.0,0.55,839.0,56.0,317.0,2.7,649,739,19.82,41.13,507,58.67,362
0.585,0.649,1.438,0.019,0.0055,2.592,0.198,0.114,0.916,3198.0,9.01,3,932.0,3.76,776.0,25.0,334.0,4.66,664,748,18.67,33.3,390,84.33,359
0.38,0.715,0.742,0.0397,0.0291,2.637,1.465,0.464,0.63,2224.0,5.94,1,870.0,3.38,834.0,33.0,467.0,3.12,690,810,23.07,34.0,389,92.87,382
0.085,0.748,0.321,0.0239,0.0276,2.305,0.441,0.171,0.752,2492.0,2.85,4,897.0,2.4,763.0,55.0,398.0,1.49,530,615,29.92,49.7,206,132.67,323
0.996,1.147,0.823,0.0232,0.0087,2.961,1.15,0.106,0.677,4192.0,2.48,3,924.0,2.25,765.0,26.0,445.0,3.44,858,942,14.39,33.31,571,77.97,494
0.196,0.425,0.282,0.0081,0.0115,0.31,0.35,0.491,0.731,3146.0,4.38,4,811.0,2.9,835.0,54.0,334.0,0.5,532,681,25.49,45.49,287,73.96,359
0.935,0.637,1.952,0.0095,0.0211,0.272,0.399,0.402,0.146,4099.0,3.31,1,807.0,3.18,828.0,5.0,435.0,1.24,643,700,17.1,30.2,575,50.84,379
0.766,1.369,1.549,0.0324,0.0283,1.425,0.651,0.297,0.54,4217.0,2.98,5,820.0,1.02,837.0,28.0,670.0,1.69,766,846,22.47,34.34,514,64.7,438
0.109,0.264,1.565,0.0063,0.0322,1.221,1.378,0.227,0.431,4030.0,2.99,0,858.0,1.1,900.0,16.0,221.0,1.05,496,578,30.78,51.74,250,117.09,276
0.672,0.979,0.24,0.0142,0.0072,2.829,0.576,0.339,0.915,2364.0,9.28,4,892.0,2.65,805.0,40.0,472.0,1.92,674,750,20.67,30.24,470,93.44,353
0.885,0.295,1.08,0.0081,0.0282,0.253,1.186,0.471,0.844,2935.0,8.57,2,907.0,3.87,787.0,8.0,580.0,0.98,808,899,18.42,28.24,531,52.77,469
0.644,0.968,1.43,0.0244,0.0303,1.829,1.822,0.25,0.514,1492.0,2.62,3,910.0,0.76,817.0,49.0,673.0,4.35,727,828,21.4,37.56,481,93.11,397
0.964,1.351,0.693,0.0189,0.0111,0.269,1.381,0.349,0.573,3072.0,3.98,0,896.0,1.39,809.0,32.0,638.0,0.59,828,882,15.97,33.67,593,46.5,441
0.555,0.312,0.967,0.026,0.0066,2.781,1.143,0.138,0.039,768.0,3.35,5,950.0,3.36,856.0,59.0,427.0,0.75,580,688,22.1,33.75,379,76.11,323
0.079,0.448,0.495,0.0372,0.0081,0.176,0.683,0.318,0.006,3937.0,2.11,1,842.0,2.26,798.0,17.0,625.0,2.44,411,465,28.22,44.99,204,109.53,205
1.011,0.147,1.449,0.0397,0.0236,1.41,1.28,0.09,0.966,1520.0,8.16,2,804.0,3.14,768.0,15.0,387.0,2.82,800,935,13.6,36.15,602,72.01,428
0.52,1.167,0.348,0.0123,0.0165,0.813,1.492,0.228,0.728,860.0,9.27,4,909.0,2.41,770.0,55.0,490.0,4.73,651,788,28.75,43.42,442,93.22,438
0.23,0.579,1.378,0.0091,0.0048,2.812,0.23,0.419,0.671,1235.0,9.11,0,946.0,0.81,867.0,28.0,650.0,3.05,539,662,27.69,47.79,269,130.33,326
0.682,0.255,1.912,0.0183,0.0285,1.418,0.643,0.01,0.947,1410.0,4.27,2,810.0,3.49,875.0,8.0,517.0,2.22,790,905,22.58,33.34,474,67.95,439
0.809,0.278,0.978,0.0354,0.0339,1.125,1.402,0.305,0.783,730.0,5.02,1,897.0,0.85,896.0,36.0,502.0,3.77,733,787,19.5,31.37,529,70.47,364
1.148,1.216,0.956,0.0327,0.0345,0.791,0.208,0.419,0.99,2803.0,6.36,4,819.0,1.42,889.0,7.0,239.0,4.36,844,941,14.75,35.58,636,27.86,442
0.688,0.421,0.916,0.0078,0.0229,3.426,1.894,0.48,0.604,2223.0,7.53,4,947.0,0.95,776.0,41.0,401.0,2.01,619,737,21.02,37.73,518,97.13,382
0.533,1.108,1.971,0.0111,0.0311,1.252,1.376,0.244,0.688,1154.0,4.48,4,866.0,0.85,778.0,40.0,245.0,0.93,739,801,23.27,38.9,444,70.67,432
0.459,1.072,1.809,0.0171,0.0074,0.43,0.478,0.077,0.939,779.0,8.37,2,854.0,1.75,828.0,10.0,287.0,2.36,604,660,22.56,40.5,356,83.32,340
0.067,0.453,0.584,0.0274,0.0205,1.761,1.527,0.139,0.623,3082.0,7.16,2,905.0,1.32,761.0,12.0,481.0,4.44,527,639,30.26,41.58,231,108.64,279
0.103,0.354,1.373,0.0096,0.0257,2.051,0.628,0.292,0.307,4451.0,6.38,4,808.0,1.32,829.0,31.0,363.0,2.55,550,681,26.91,39.88,229,117.32,318
1.034,0.917,1.756,0.0373,0.0046,0.251,0.921,0.177,0.417,4819.0,5.02,4,870.0,3.56,814.0,47.0,688.0,3.61,858,969,12.7,19.85,612,36.83,452
0.595,0.747,1.943,0.0262,0.0082,0.847,0.228,0.016,0.171,941.0,2.32,0,896.0,3.53,860.0,22.0,412.0,4.41,663,782,22.1,37.06,425,81.79,369
0.615,0.315,1.764,0.0111,0.029,2.879,0.441,0.042,0.757,1334.0,9.65,3,879.0,0.94,802.0,53.0,212.0,2.48,723,829,19.04,36.04,420,75.97,413
0.249,0.808,1.588,0.019,0.0254,1.934,0.315,0.44,0.084,3405.0,4.82,4,946.0,1.06,790.0,8.0,468.0,2.59,613,698,23.42,44.08,272,116.32,401
0.508,0.125,1.57,0.0179,0.0175,0.5,1.502,0.33,0.1,4757.0,3.43,3,872.0,3.16,778.0,47.0,231.0,3.27,688,751,19.57,39.18,395,78.03,337
0.78,1.405,0.436,0.0059,0.0172,0.95,0.903,0.431,0.662,1835.0,9.58,3,902.0,2.27,764.0,18.0,648.0,2.72,742,792,15.84,31.58,505,67.91,379
0.481,1.075,1.858,0.0387,0.0183,0.995,0.855,0.098,0.163,1264.0,8.11,5,907.0,3.78,869.0,6.0,325.0,0.56,702,763,25.11,35.38,393,69.41,390
0.629,1.09,1.634,0.0388,0.0131,2.203,0.49,0.143,0.024,1055.0,9.85,5,847.0,3.83,771.0,31.0,545.0,3.64,741,824,20.4,34.8,409,93.67,392
0.807,0.907,0.411,0.0159,0.0255,2.62,0.61,0.499,0.975,1606.0,8.2,2,898.0,1.88,761.0,5.0,402.0,1.83,700,771,18.21,40.14,516,70.29,305
0.131,0.694,1.434,0.0204,0.0053,0.0,1.348,0.449,0.231,4953.0,7.02,1,890.0,2.23,873.0,25.0,308.0,2.4,562,656,28.44,49.61,254,84.99,354
0.08,1.408,0.561,0.0274,0.0067,0.164,1.247,0.487,0.926,4770.0,3.17,1,934.0,2.22,888.0,42.0,685.0,1.54,396,477,30.41,49.93,223,96.13,278
1.131,0.731,0.316,0.0267,0.0169,2.474,0.244,0.424,0.051,2220.0,9.34,1,869.0,3.41,856.0,58.0,499.0,1.39,766,884,17.45,27.58,620,58.8,411
0.496,1.479,0.684,0.0103,0.0235,2.938,0.665,0.168,0.574,845.0,7.0,1,901.0,1.67,870.0,27.0,423.0,1.39,568,687,23.69,38.23,389,103.22,289
0.577,0.275,0.759,0.0323,0.0136,0.864,1.238,0.488,0.029,3517.0,2.55,2,837.0,2.5,872.0,40.0,613.0,3.32,594,653,19.89,34.72,406,95.38,329
1.133,1.318,0.221,0.007,0.0176,1.107,1.332,0.426,0.011,2349.0,4.51,5,926.0,3.28,793.0,12.0,472.0,4.88,866,999,12.55,28.84,622,43.48,512
1.155,0.928,0.906,0.007,0.0229,1.261,0.129,0.043,0.306,2369.0,4.85,4,836.0,1.67,862.0,25.0,291.0,2.06,813,912,13.48,28.4,632,60.95,441
0.275,0.177,1.28,0.0394,0.0243,2.949,0.577,0.036,0.588,2009.0,6.77,0,829.0,1.34,782.0,31.0,557.0,0.54,534,598,27.06,48.3,289,100.7,340
0.166,1.224,1.451,0.01,0.0246,2.761,1.443,0.115,0.974,943.0,5.06,2,937.0,1.57,790.0,38.0,545.0,0.64,549,656,25.47,49.31,292,130.08,386
0.159,0.567,1.604,0.0156,0.0078,1.518,0.695,0.134,0.275,3197.0,3.57,2,914.0,2.11,786.0,28.0,408.0,4.51,540,684,29.71,44.9,246,101.63,346
0.132,0.852,1.065,0.0292,0.0095,1.321,1.236,0.084,0.271,1919.0,4.4,5,927.0,0.62,900.0,29.0,384.0,2.95,501,642,26.38,55.02,248,95.87,308
1.022,0.585,0.636,0.0228,0.0112,0.313,1.899,0.487,0.375,1566.0,6.81,4,851.0,2.4,877.0,51.0,355.0,2.24,787,912,14.17,22.89,616,49.14,415
0.987,1.133,0.456,0.0335,0.0249,1.728,0.394,0.484,0.051,1306.0,4.9,5,814.0,1.75,878.0,7.0,533.0,0.7,733,845,14.26,34.81,540,56.64,414
0.186,0.414,1.313,0.0157,0.0121,2.214,1.499,0.139,0.832,3549.0,3.63,1,887.0,3.88,886.0,35.0,430.0,2.56,504,616,25.28,49.73,301,126.07,285
0.773,0.297,1.207,0.0234,0.0031,0.015,0.485,0.163,0.224,2638.0,8.41,5,828.0,1.4,761.0,51.0,305.0,4.5,741,889,17.33,21.04,472,57.52,478
0.895,0.798,0.788,0.0096,0.0236,2.496,1.432,0.116,0.817,827.0,2.88,1,809.0,2.1,795.0,22.0,648.0,4.2,705,832,14.56,32.85,583,71.72,380
0.374,1.381,0.358,0.0207,0.0307,3.381,0.875,0.128,0.095,2075.0,4.74,0,926.0,1.22,884.0,31.0,314.0,2.27,589,660,25.07,36.89,343,101.25,381
0.913,0.913,0.26,0.0179,0.028,3.328,1.208,0.337,0.337,4966.0,2.2,1,807.0,0.57,845.0,7.0,264.0,2.3,762,860,14.93,32.18,537,88.19,456
1.189,0.118,0.914,0.034,0.0106,1.043,0.955,0.105,0.084,4434.0,4.53,4,923.0,3.22,873.0,18.0,238.0,2.77,850,982,12.9,23.47,696,34.88,441
0.478,0.349,1.222,0.0319,0.0241,2.736,0.858,0.073,0.752,1511.0,6.88,0,852.0,2.47,798.0,10.0,522.0,2.49,677,784,25.41,47.01,373,90.89,424
0.442,0.308,1.641,0.0196,0.0057,0.169,0.458,0.432,0.493,2344.0,5.09,4,841.0,3.1,772.0,37.0,554.0,4.32,657,710,26.1,41.28,331,67.98,351
1.037,0.219,0.501,0.0057,0.0172,3.349,1.956,0.041,0.334,1314.0,3.18,2,910.0,3.48,830.0,55.0,328.0,2.71,824,956,14.5,31.81,630,85.43,468
0.914,0.803,1.346,0.0316,0.02,1.515,0.116,0.151,0.53,2004.0,2.72,5,887.0,3.56,822.0,39.0,258.0,4.48,767,876,15.21,27.42,544,58.65,404
0.169,0.194,0.257,0.0237,0.0342,0.731,0.276,0.402,0.572,2390.0,2.05,1,901.0,3.03,833.0,15.0,419.0,1.5,469,535,28.87,43.3,247,114.29,231
0.631,0.394,0.294,0.0054,0.0159,1.294,1.838,0.29,0.76,4247.0,2.99,5,853.0,3.67,761.0,47.0,502.0,4.11,654,802,19.81,37.68,475,89.0,360
0.418,0.387,1.476,0.0392,0.0264,2.686,0.592,0.072,0.149,4399.0,9.41,4,819.0,1.12,860.0,26.0,699.0,4.96,526,598,25.38,51.51,345,92.92,309
0.498,0.151,1.485,0.0386,0.0112,2.878,1.475,0.137,0.361,3614.0,9.73,4,929.0,0.79,767.0,5.0,402.0,4.08,652,768,22.58,37.47,407,87.32,369
1.091,0.891,0.811,0.0088,0.0116,0.742,1.22,0.041,0.68,2371.0,7.93,3,894.0,3.8,894.0,16.0,329.0,2.71,823,937,13.39,35.7,610,73.46,550
0.417,1.186,0.344,0.0209,0.0269,1.653,1.312,0.153,0.035,2312.0,9.08,3,816.0,1.82,805.0,49.0,384.0,2.36,557,696,24.73,49.12,355,90.46,369
1.143,0.834,1.186,0.0084,0.0026,0.755,1.457,0.028,0.697,4984.0,6.28,4,887.0,2.41,841.0,16.0,384.0,0.72,925,1006,12.01,23.58,633,29.65,518
0.777,0.661,1.014,0.0103,0.026,2.127,0.479,0.229,0.642,3540.0,3.33,1,917.0,2.96,810.0,53.0,392.0,1.6,718,807,19.46,32.45,473,73.88,379
0.387,0.317,1.148,0.0308,0.0294,0.478,1.504,0.287,0.886,1099.0,4.62,1,925.0,3.96,838.0,9.0,525.0,1.05,644,786,24.37,43.74,403,68.63,410
0.823,1.306,0.347,0.0182,0.0308,2.585,0.572,0.389,0.297,4772.0,8.08,2,912.0,2.85,819.0,46.0,367.0,2.35,673,809,18.45,40.23,516,75.02,375
0.96,0.623,0.645,0.0211,0.0252,2.257,0.615,0.157,0.411,4582.0,9.62,2,843.0,0.9,761.0,50.0,219.0,3.7,668,811,15.23,26.08,553,52.04,403
0.155,1.002,1.769,0.0362,0.0052,2.496,0.219,0.42,0.672,1437.0,6.78,1,847.0,4.0,883.0,49.0,456.0,0.86,578,685,25.93,47.82,242,117.42,360
0.116,0.136,1.957,0.0325,0.0024,3.116,1.492,0.445,0.673,3511.0,2.4,1,805.0,3.25,859.0,32.0,449.0,1.67,586,718,25.2,54.0,239,129.72,360
0.558,1.102,0.528,0.0291,0.0119,1.287,1.378,0.098,0.397,2383.0,5.72,5,825.0,1.55,798.0,59.0,206.0,4.39,580,686,21.95,35.2,421,76.5,348
0.454,0.138,1.386,0.0139,0.0118,0.39,1.908,0.371,0.738,3172.0,7.95,5,826.0,1.5,840.0,13.0,423.0,1.26,641,723,21.59,30.86,400,84.93,355
0.214,0.424,1.2,0.0063,0.0265,0.937,1.63,0.242,0.671,1227.0,5.39,0,874.0,3.15,892.0,21.0,269.0,3.96,530,665,28.64,43.11,295,87.04,360
0.761,0.128,0.611,0.0212,0.0318,0.051,1.872,0.181,0.081,2991.0,9.69,0,832.0,0.77,772.0,37.0,448.0,2.02,755,890,18.32,30.21,524,63.64,427
0.147,1.22,1.955,0.0281,0.024,1.181,0.481,0.203,0.156,1445.0,5.91,1,914.0,0.86,817.0,51.0,539.0,1.05,515,616,28.27,43.07,230,119.76,319
0.134,1.014,0.559,0.0273,0.0314,0.435,1.511,0.227,0.977,613.0,9.28,5,937.0,3.77,767.0,30.0,681.0,3.13,598,649,24.74,49.62,299,99.41,327
0.862,0.239,0.33,0.0073,0.0046,1.725,1.091,0.063,0.659,4011.0,8.1,2,897.0,3.31,871.0,41.0,604.0,2.64,665,781,18.29,30.95,526,58.69,425
0.148,1.111,0.664,0.0103,0.0282,1.858,0.805,0.476,0.866,1675.0,4.73,0,824.0,1.77,802.0,27.0,399.0,3.38,515,638,26.69,46.9,236,111.02,327
0.48,1.262,1.763,0.0229,0.0212,0.035,1.21,0.284,0.468,3053.0,8.79,1,889.0,3.57,880.0,13.0,485.0,1.24,669,725,24.76,41.99,416,60.87,363
0.985,1.035,1.537,0.0065,0.0302,3.372,0.611,0.245,0.411,3808.0,8.35,4,846.0,1.09,798.0,26.0,239.0,1.13,740,849,14.85,33.35,603,86.71,374
1.184,0.51,0.823,0.0301,0.0041,2.371,1.801,0.115,0.33,2697.0,6.99,3,861.0,2.21,795.0,6.0,625.0,3.78,917,974,11.7,23.53,688,44.74,520
0.483,0.118,1.978,0.0075,0.0218,2.709,1.596,0.186,0.851,1676.0,8.44,3,844.0,3.81,841.0,32.0,534.0,1.75,706,811,26.81,44.68,416,90.73,462
0.146,0.22,0.272,0.0054,0.0058,2.705,0.963,0.331,0.202,2386.0,8.76,5,844.0,2.53,835.0,53.0,471.0,4.78,470,552,26.02,56.72,240,98.79,244